{"internal_node_id":{"0":"0.0-7.0","1":"0.0-8.0","2":"0.0-9.0","3":"0.0-10.0","4":"0.0-11.0","5":"0.0-12.0","6":"0.0-13.0","7":"0.0-15.0","8":"0.0-16.0","9":"0.0-17.0","10":"0.0-18.0","11":"0.0-19.0","12":"0.0-20.0","13":"0.0-21.0","14":"0.0-23.0","15":"0.0-24.0","16":"0.0-25.0","17":"0.0-26.0","18":"0.0-27.0","19":"0.0-28.0","20":"0.0-29.0","21":"0.0-31.0","22":"0.0-32.0","23":"0.0-33.0","24":"0.0-34.0","25":"0.0-35.0","26":"0.0-36.0","27":"0.0-37.0","28":"0.0-39.0","29":"0.0-40.0","30":"0.0-41.0","31":"0.0-42.0","32":"0.0-43.0","33":"0.0-44.0","34":"0.0-45.0","35":"0.0-47.0","36":"0.0-48.0","37":"0.0-49.0","38":"0.0-50.0","39":"0.0-51.0","40":"0.0-52.0","41":"0.0-53.0","42":"0.0-55.0","43":"0.0-56.0","44":"0.0-57.0","45":"0.0-58.0","46":"0.0-59.0","47":"0.0-60.0","48":"0.0-61.0","49":"0.0-63.0","50":"0.0-64.0","51":"0.0-65.0","52":"0.0-66.0","53":"0.0-67.0","54":"0.0-68.0","55":"0.0-69.0","56":"0.0-71.0","57":"0.0-72.0","58":"0.0-73.0","59":"0.0-74.0","60":"0.0-75.0","61":"0.0-76.0","62":"0.0-77.0","63":"0.0-79.0","64":"0.0-80.0","65":"0.0-81.0","66":"0.0-82.0","67":"0.0-83.0","68":"0.0-84.0","69":"0.0-85.0","70":"0.0-87.0","71":"0.0-88.0","72":"0.0-89.0","73":"0.0-90.0","74":"0.0-91.0","75":"0.0-92.0","76":"0.0-93.0","77":"0.0-95.0","78":"0.0-96.0","79":"0.0-97.0","80":"0.0-98.0","81":"0.0-99.0","82":"0.0-100.0","83":"0.0-101.0"},"time_elapsed":{"0":90474,"1":95810,"2":98252,"3":100925,"4":103296,"5":105653,"6":107920,"7":129876,"8":131742,"9":133387,"10":135115,"11":138837,"12":140295,"13":142673,"14":155454,"15":157391,"16":158934,"17":160778,"18":163869,"19":165633,"20":167331,"21":179625,"22":181270,"23":183355,"24":185008,"25":186534,"26":189784,"27":192057,"28":207580,"29":208815,"30":211033,"31":212579,"32":214478,"33":215813,"34":218354,"35":242043,"36":243351,"37":245306,"38":246672,"39":248035,"40":249343,"41":251576,"42":270225,"43":271554,"44":272975,"45":275455,"46":277010,"47":278321,"48":280663,"49":295302,"50":297044,"51":298879,"52":300766,"53":302275,"54":303581,"55":305135,"56":314250,"57":315721,"58":316963,"59":318528,"60":320140,"61":321209,"62":322508,"63":332598,"64":338032,"65":339969,"66":341771,"67":343152,"68":344883,"69":346207,"70":354917,"71":355952,"72":357495,"73":359108,"74":360474,"75":364753,"76":367094,"77":376181,"78":377231,"79":378776,"80":380299,"81":381810,"82":383159,"83":384958},"trial_index":{"0":7,"1":8,"2":9,"3":10,"4":11,"5":12,"6":13,"7":15,"8":16,"9":17,"10":18,"11":19,"12":20,"13":21,"14":23,"15":24,"16":25,"17":26,"18":27,"19":28,"20":29,"21":31,"22":32,"23":33,"24":34,"25":35,"26":36,"27":37,"28":39,"29":40,"30":41,"31":42,"32":43,"33":44,"34":45,"35":47,"36":48,"37":49,"38":50,"39":51,"40":52,"41":53,"42":55,"43":56,"44":57,"45":58,"46":59,"47":60,"48":61,"49":63,"50":64,"51":65,"52":66,"53":67,"54":68,"55":69,"56":71,"57":72,"58":73,"59":74,"60":75,"61":76,"62":77,"63":79,"64":80,"65":81,"66":82,"67":83,"68":84,"69":85,"70":87,"71":88,"72":89,"73":90,"74":91,"75":92,"76":93,"77":95,"78":96,"79":97,"80":98,"81":99,"82":100,"83":101},"trial_type":{"0":"GridBlockAttentionQuery","1":"GridBlockAttentionQuery","2":"GridBlockAttentionQuery","3":"GridBlockAttentionQuery","4":"GridBlockAttentionQuery","5":"GridBlockAttentionQuery","6":"GridBlockAttentionQuery","7":"GridBlockAttentionQuery","8":"GridBlockAttentionQuery","9":"GridBlockAttentionQuery","10":"GridBlockAttentionQuery","11":"GridBlockAttentionQuery","12":"GridBlockAttentionQuery","13":"GridBlockAttentionQuery","14":"GridBlockAttentionQuery","15":"GridBlockAttentionQuery","16":"GridBlockAttentionQuery","17":"GridBlockAttentionQuery","18":"GridBlockAttentionQuery","19":"GridBlockAttentionQuery","20":"GridBlockAttentionQuery","21":"GridBlockAttentionQuery","22":"GridBlockAttentionQuery","23":"GridBlockAttentionQuery","24":"GridBlockAttentionQuery","25":"GridBlockAttentionQuery","26":"GridBlockAttentionQuery","27":"GridBlockAttentionQuery","28":"GridBlockAttentionQuery","29":"GridBlockAttentionQuery","30":"GridBlockAttentionQuery","31":"GridBlockAttentionQuery","32":"GridBlockAttentionQuery","33":"GridBlockAttentionQuery","34":"GridBlockAttentionQuery","35":"GridBlockAttentionQuery","36":"GridBlockAttentionQuery","37":"GridBlockAttentionQuery","38":"GridBlockAttentionQuery","39":"GridBlockAttentionQuery","40":"GridBlockAttentionQuery","41":"GridBlockAttentionQuery","42":"GridBlockAttentionQuery","43":"GridBlockAttentionQuery","44":"GridBlockAttentionQuery","45":"GridBlockAttentionQuery","46":"GridBlockAttentionQuery","47":"GridBlockAttentionQuery","48":"GridBlockAttentionQuery","49":"GridBlockAttentionQuery","50":"GridBlockAttentionQuery","51":"GridBlockAttentionQuery","52":"GridBlockAttentionQuery","53":"GridBlockAttentionQuery","54":"GridBlockAttentionQuery","55":"GridBlockAttentionQuery","56":"GridBlockAttentionQuery","57":"GridBlockAttentionQuery","58":"GridBlockAttentionQuery","59":"GridBlockAttentionQuery","60":"GridBlockAttentionQuery","61":"GridBlockAttentionQuery","62":"GridBlockAttentionQuery","63":"GridBlockAttentionQuery","64":"GridBlockAttentionQuery","65":"GridBlockAttentionQuery","66":"GridBlockAttentionQuery","67":"GridBlockAttentionQuery","68":"GridBlockAttentionQuery","69":"GridBlockAttentionQuery","70":"GridBlockAttentionQuery","71":"GridBlockAttentionQuery","72":"GridBlockAttentionQuery","73":"GridBlockAttentionQuery","74":"GridBlockAttentionQuery","75":"GridBlockAttentionQuery","76":"GridBlockAttentionQuery","77":"GridBlockAttentionQuery","78":"GridBlockAttentionQuery","79":"GridBlockAttentionQuery","80":"GridBlockAttentionQuery","81":"GridBlockAttentionQuery","82":"GridBlockAttentionQuery","83":"GridBlockAttentionQuery"},"block":{"0":0,"1":0,"2":0,"3":0,"4":0,"5":0,"6":0,"7":0,"8":0,"9":0,"10":0,"11":0,"12":0,"13":0,"14":0,"15":0,"16":0,"17":0,"18":0,"19":0,"20":0,"21":0,"22":0,"23":0,"24":0,"25":0,"26":0,"27":0,"28":0,"29":0,"30":0,"31":0,"32":0,"33":0,"34":0,"35":0,"36":0,"37":0,"38":0,"39":0,"40":0,"41":0,"42":0,"43":0,"44":0,"45":0,"46":0,"47":0,"48":0,"49":0,"50":0,"51":0,"52":0,"53":0,"54":0,"55":0,"56":0,"57":0,"58":0,"59":0,"60":0,"61":0,"62":0,"63":0,"64":0,"65":0,"66":0,"67":0,"68":0,"69":0,"70":0,"71":0,"72":0,"73":0,"74":0,"75":0,"76":0,"77":0,"78":0,"79":0,"80":0,"81":0,"82":0,"83":0},"navgridname":{"0":"grid-6-0-rot180","1":"grid-6-0-rot180","2":"grid-6-0-rot180","3":"grid-6-0-rot180","4":"grid-6-0-rot180","5":"grid-6-0-rot180","6":"grid-6-0-rot180","7":"grid-2-0-base","8":"grid-2-0-base","9":"grid-2-0-base","10":"grid-2-0-base","11":"grid-2-0-base","12":"grid-2-0-base","13":"grid-2-0-base","14":"grid-5-0-vflip","15":"grid-5-0-vflip","16":"grid-5-0-vflip","17":"grid-5-0-vflip","18":"grid-5-0-vflip","19":"grid-5-0-vflip","20":"grid-5-0-vflip","21":"grid-1-0-hflip","22":"grid-1-0-hflip","23":"grid-1-0-hflip","24":"grid-1-0-hflip","25":"grid-1-0-hflip","26":"grid-1-0-hflip","27":"grid-1-0-hflip","28":"grid-4-0-hflip","29":"grid-4-0-hflip","30":"grid-4-0-hflip","31":"grid-4-0-hflip","32":"grid-4-0-hflip","33":"grid-4-0-hflip","34":"grid-4-0-hflip","35":"grid-9-0-rot180","36":"grid-9-0-rot180","37":"grid-9-0-rot180","38":"grid-9-0-rot180","39":"grid-9-0-rot180","40":"grid-9-0-rot180","41":"grid-9-0-rot180","42":"grid-11-0-vflip","43":"grid-11-0-vflip","44":"grid-11-0-vflip","45":"grid-11-0-vflip","46":"grid-11-0-vflip","47":"grid-11-0-vflip","48":"grid-11-0-vflip","49":"grid-8-0-base","50":"grid-8-0-base","51":"grid-8-0-base","52":"grid-8-0-base","53":"grid-8-0-base","54":"grid-8-0-base","55":"grid-8-0-base","56":"grid-10-0-vflip","57":"grid-10-0-vflip","58":"grid-10-0-vflip","59":"grid-10-0-vflip","60":"grid-10-0-vflip","61":"grid-10-0-vflip","62":"grid-10-0-vflip","63":"grid-0-0-rot180","64":"grid-0-0-rot180","65":"grid-0-0-rot180","66":"grid-0-0-rot180","67":"grid-0-0-rot180","68":"grid-0-0-rot180","69":"grid-0-0-rot180","70":"grid-7-0-hflip","71":"grid-7-0-hflip","72":"grid-7-0-hflip","73":"grid-7-0-hflip","74":"grid-7-0-hflip","75":"grid-7-0-hflip","76":"grid-7-0-hflip","77":"grid-3-0-base","78":"grid-3-0-base","79":"grid-3-0-base","80":"grid-3-0-base","81":"grid-3-0-base","82":"grid-3-0-base","83":"grid-3-0-base"},"page":{"0":1,"1":2,"2":3,"3":4,"4":5,"5":6,"6":7,"7":9,"8":10,"9":11,"10":12,"11":13,"12":14,"13":15,"14":17,"15":18,"16":19,"17":20,"18":21,"19":22,"20":23,"21":25,"22":26,"23":27,"24":28,"25":29,"26":30,"27":31,"28":33,"29":34,"30":35,"31":36,"32":37,"33":38,"34":39,"35":41,"36":42,"37":43,"38":44,"39":45,"40":46,"41":47,"42":49,"43":50,"44":51,"45":52,"46":53,"47":54,"48":55,"49":57,"50":58,"51":59,"52":60,"53":61,"54":62,"55":63,"56":65,"57":66,"58":67,"59":68,"60":69,"61":70,"62":71,"63":73,"64":74,"65":75,"66":76,"67":77,"68":78,"69":79,"70":81,"71":82,"72":83,"73":84,"74":85,"75":86,"76":87,"77":89,"78":90,"79":91,"80":92,"81":93,"82":94,"83":95},"probegridparams":{"0":"","1":"","2":"","3":"","4":"","5":"","6":"","7":"","8":"","9":"","10":"","11":"","12":"","13":"","14":"","15":"","16":"","17":"","18":"","19":"","20":"","21":"","22":"","23":"","24":"","25":"","26":"","27":"","28":"","29":"","30":"","31":"","32":"","33":"","34":"","35":"","36":"","37":"","38":"","39":"","40":"","41":"","42":"","43":"","44":"","45":"","46":"","47":"","48":"","49":"","50":"","51":"","52":"","53":"","54":"","55":"","56":"","57":"","58":"","59":"","60":"","61":"","62":"","63":"","64":"","65":"","66":"","67":"","68":"","69":"","70":"","71":"","72":"","73":"","74":"","75":"","76":"","77":"","78":"","79":"","80":"","81":"","82":"","83":""},"probeobs":{"0":2,"1":4,"2":5,"3":0,"4":1,"5":6,"6":3,"7":6,"8":3,"9":0,"10":5,"11":1,"12":2,"13":4,"14":2,"15":5,"16":1,"17":0,"18":4,"19":3,"20":6,"21":3,"22":1,"23":5,"24":0,"25":6,"26":4,"27":2,"28":5,"29":2,"30":4,"31":6,"32":1,"33":0,"34":3,"35":3,"36":6,"37":0,"38":5,"39":1,"40":2,"41":4,"42":1,"43":5,"44":4,"45":6,"46":0,"47":3,"48":2,"49":1,"50":2,"51":5,"52":3,"53":6,"54":0,"55":4,"56":1,"57":0,"58":3,"59":2,"60":6,"61":5,"62":4,"63":6,"64":5,"65":3,"66":4,"67":1,"68":2,"69":0,"70":6,"71":2,"72":3,"73":1,"74":5,"75":0,"76":4,"77":5,"78":6,"79":1,"80":2,"81":4,"82":3,"83":0},"queryround":{"0":0,"1":1,"2":2,"3":3,"4":4,"5":5,"6":6,"7":0,"8":1,"9":2,"10":3,"11":4,"12":5,"13":6,"14":0,"15":1,"16":2,"17":3,"18":4,"19":5,"20":6,"21":0,"22":1,"23":2,"24":3,"25":4,"26":5,"27":6,"28":0,"29":1,"30":2,"31":3,"32":4,"33":5,"34":6,"35":0,"36":1,"37":2,"38":3,"39":4,"40":5,"41":6,"42":0,"43":1,"44":2,"45":3,"46":4,"47":5,"48":6,"49":0,"50":1,"51":2,"52":3,"53":4,"54":5,"55":6,"56":0,"57":1,"58":2,"59":3,"60":4,"61":5,"62":6,"63":0,"64":1,"65":2,"66":3,"67":4,"68":5,"69":6,"70":0,"71":1,"72":2,"73":3,"74":4,"75":5,"76":6,"77":0,"78":1,"79":2,"80":3,"81":4,"82":5,"83":6},"questiontext":{"0":"How aware of the highlighted obstacle were you at any point?","1":"How aware of the highlighted obstacle were you at any point?","2":"How aware of the highlighted obstacle were you at any point?","3":"How aware of the highlighted obstacle were you at any point?","4":"How aware of the highlighted obstacle were you at any point?","5":"How aware of the highlighted obstacle were you at any point?","6":"How aware of the highlighted obstacle were you at any point?","7":"How aware of the highlighted obstacle were you at any point?","8":"How aware of the highlighted obstacle were you at any point?","9":"How aware of the highlighted obstacle were you at any point?","10":"How aware of the highlighted obstacle were you at any point?","11":"How aware of the highlighted obstacle were you at any point?","12":"How aware of the highlighted obstacle were you at any point?","13":"How aware of the highlighted obstacle were you at any point?","14":"How aware of the highlighted obstacle were you at any point?","15":"How aware of the highlighted obstacle were you at any point?","16":"How aware of the highlighted obstacle were you at any point?","17":"How aware of the highlighted obstacle were you at any point?","18":"How aware of the highlighted obstacle were you at any point?","19":"How aware of the highlighted obstacle were you at any point?","20":"How aware of the highlighted obstacle were you at any point?","21":"How aware of the highlighted obstacle were you at any point?","22":"How aware of the highlighted obstacle were you at any point?","23":"How aware of the highlighted obstacle were you at any point?","24":"How aware of the highlighted obstacle were you at any point?","25":"How aware of the highlighted obstacle were you at any point?","26":"How aware of the highlighted obstacle were you at any point?","27":"How aware of the highlighted obstacle were you at any point?","28":"How aware of the highlighted obstacle were you at any point?","29":"How aware of the highlighted obstacle were you at any point?","30":"How aware of the highlighted obstacle were you at any point?","31":"How aware of the highlighted obstacle were you at any point?","32":"How aware of the highlighted obstacle were you at any point?","33":"How aware of the highlighted obstacle were you at any point?","34":"How aware of the highlighted obstacle were you at any point?","35":"How aware of the highlighted obstacle were you at any point?","36":"How aware of the highlighted obstacle were you at any point?","37":"How aware of the highlighted obstacle were you at any point?","38":"How aware of the highlighted obstacle were you at any point?","39":"How aware of the highlighted obstacle were you at any point?","40":"How aware of the highlighted obstacle were you at any point?","41":"How aware of the highlighted obstacle were you at any point?","42":"How aware of the highlighted obstacle were you at any point?","43":"How aware of the highlighted obstacle were you at any point?","44":"How aware of the highlighted obstacle were you at any point?","45":"How aware of the highlighted obstacle were you at any point?","46":"How aware of the highlighted obstacle were you at any point?","47":"How aware of the highlighted obstacle were you at any point?","48":"How aware of the highlighted obstacle were you at any point?","49":"How aware of the highlighted obstacle were you at any point?","50":"How aware of the highlighted obstacle were you at any point?","51":"How aware of the highlighted obstacle were you at any point?","52":"How aware of the highlighted obstacle were you at any point?","53":"How aware of the highlighted obstacle were you at any point?","54":"How aware of the highlighted obstacle were you at any point?","55":"How aware of the highlighted obstacle were you at any point?","56":"How aware of the highlighted obstacle were you at any point?","57":"How aware of the highlighted obstacle were you at any point?","58":"How aware of the highlighted obstacle were you at any point?","59":"How aware of the highlighted obstacle were you at any point?","60":"How aware of the highlighted obstacle were you at any point?","61":"How aware of the highlighted obstacle were you at any point?","62":"How aware of the highlighted obstacle were you at any point?","63":"How aware of the highlighted obstacle were you at any point?","64":"How aware of the highlighted obstacle were you at any point?","65":"How aware of the highlighted obstacle were you at any point?","66":"How aware of the highlighted obstacle were you at any point?","67":"How aware of the highlighted obstacle were you at any point?","68":"How aware of the highlighted obstacle were you at any point?","69":"How aware of the highlighted obstacle were you at any point?","70":"How aware of the highlighted obstacle were you at any point?","71":"How aware of the highlighted obstacle were you at any point?","72":"How aware of the highlighted obstacle were you at any point?","73":"How aware of the highlighted obstacle were you at any point?","74":"How aware of the highlighted obstacle were you at any point?","75":"How aware of the highlighted obstacle were you at any point?","76":"How aware of the highlighted obstacle were you at any point?","77":"How aware of the highlighted obstacle were you at any point?","78":"How aware of the highlighted obstacle were you at any point?","79":"How aware of the highlighted obstacle were you at any point?","80":"How aware of the highlighted obstacle were you at any point?","81":"How aware of the highlighted obstacle were you at any point?","82":"How aware of the highlighted obstacle were you at any point?","83":"How aware of the highlighted obstacle were you at any point?"},"response":{"0":3,"1":6,"2":3,"3":1,"4":5,"5":1,"6":1,"7":5,"8":3,"9":3,"10":1,"11":2,"12":6,"13":6,"14":3,"15":7,"16":1,"17":6,"18":4,"19":6,"20":1,"21":5,"22":4,"23":2,"24":6,"25":1,"26":2,"27":6,"28":5,"29":6,"30":6,"31":3,"32":6,"33":1,"34":4,"35":6,"36":7,"37":3,"38":2,"39":1,"40":7,"41":5,"42":2,"43":1,"44":6,"45":5,"46":5,"47":5,"48":2,"49":6,"50":3,"51":1,"52":5,"53":7,"54":1,"55":1,"56":6,"57":6,"58":1,"59":1,"60":5,"61":6,"62":3,"63":1,"64":3,"65":2,"66":7,"67":2,"68":5,"69":6,"70":6,"71":7,"72":2,"73":1,"74":1,"75":2,"76":4,"77":6,"78":3,"79":1,"80":1,"81":7,"82":8,"83":2},"responselabels":{"0":[" Not at all "," A lot "],"1":[" Not at all "," A lot "],"2":[" Not at all "," A lot "],"3":[" Not at all "," A lot "],"4":[" Not at all "," A lot "],"5":[" Not at all "," A lot "],"6":[" Not at all "," A lot "],"7":[" Not at all "," A lot "],"8":[" Not at all "," A lot "],"9":[" Not at all "," A lot "],"10":[" Not at all "," A lot "],"11":[" Not at all "," A lot "],"12":[" Not at all "," A lot "],"13":[" Not at all "," A lot "],"14":[" Not at all "," A lot "],"15":[" Not at all "," A lot "],"16":[" Not at all "," A lot "],"17":[" Not at all "," A lot "],"18":[" Not at all "," A lot "],"19":[" Not at all "," A lot "],"20":[" Not at all "," A lot "],"21":[" Not at all "," A lot "],"22":[" Not at all "," A lot "],"23":[" Not at all "," A lot "],"24":[" Not at all "," A lot "],"25":[" Not at all "," A lot "],"26":[" Not at all "," A lot "],"27":[" Not at all "," A lot "],"28":[" Not at all "," A lot "],"29":[" Not at all "," A lot "],"30":[" Not at all "," A lot "],"31":[" Not at all "," A lot "],"32":[" Not at all "," A lot "],"33":[" Not at all "," A lot "],"34":[" Not at all "," A lot "],"35":[" Not at all "," A lot "],"36":[" Not at all "," A lot "],"37":[" Not at all "," A lot "],"38":[" Not at all "," A lot "],"39":[" Not at all "," A lot "],"40":[" Not at all "," A lot "],"41":[" Not at all "," A lot "],"42":[" Not at all "," A lot "],"43":[" Not at all "," A lot "],"44":[" Not at all "," A lot "],"45":[" Not at all "," A lot "],"46":[" Not at all "," A lot "],"47":[" Not at all "," A lot "],"48":[" Not at all "," A lot "],"49":[" Not at all "," A lot "],"50":[" Not at all "," A lot "],"51":[" Not at all "," A lot "],"52":[" Not at all "," A lot "],"53":[" Not at all "," A lot "],"54":[" Not at all "," A lot "],"55":[" Not at all "," A lot "],"56":[" Not at all "," A lot "],"57":[" Not at all "," A lot "],"58":[" Not at all "," A lot "],"59":[" Not at all "," A lot "],"60":[" Not at all "," A lot "],"61":[" Not at all "," A lot "],"62":[" Not at all "," A lot "],"63":[" Not at all "," A lot "],"64":[" Not at all "," A lot "],"65":[" Not at all "," A lot "],"66":[" Not at all "," A lot "],"67":[" Not at all "," A lot "],"68":[" Not at all "," A lot "],"69":[" Not at all "," A lot "],"70":[" Not at all "," A lot "],"71":[" Not at all "," A lot "],"72":[" Not at all "," A lot "],"73":[" Not at all "," A lot "],"74":[" Not at all "," A lot "],"75":[" Not at all "," A lot "],"76":[" Not at all "," A lot "],"77":[" Not at all "," A lot "],"78":[" Not at all "," A lot "],"79":[" Not at all "," A lot "],"80":[" Not at all "," A lot "],"81":[" Not at all "," A lot "],"82":[" Not at all "," A lot "],"83":[" Not at all "," A lot "]},"responsetime":{"0":1698813645653,"1":1698813650990,"2":1698813653432,"3":1698813656105,"4":1698813658476,"5":1698813660834,"6":1698813663100,"7":1698813685057,"8":1698813686923,"9":1698813688567,"10":1698813690295,"11":1698813694017,"12":1698813695475,"13":1698813697853,"14":1698813710635,"15":1698813712571,"16":1698813714114,"17":1698813715958,"18":1698813719049,"19":1698813720813,"20":1698813722511,"21":1698813734806,"22":1698813736450,"23":1698813738536,"24":1698813740188,"25":1698813741714,"26":1698813744964,"27":1698813747237,"28":1698813762760,"29":1698813763996,"30":1698813766213,"31":1698813767760,"32":1698813769658,"33":1698813770994,"34":1698813773534,"35":1698813797223,"36":1698813798531,"37":1698813800487,"38":1698813801852,"39":1698813803216,"40":1698813804524,"41":1698813806756,"42":1698813825406,"43":1698813826734,"44":1698813828155,"45":1698813830636,"46":1698813832191,"47":1698813833501,"48":1698813835843,"49":1698813850482,"50":1698813852225,"51":1698813854060,"52":1698813855946,"53":1698813857455,"54":1698813858761,"55":1698813860315,"56":1698813869430,"57":1698813870901,"58":1698813872144,"59":1698813873708,"60":1698813875320,"61":1698813876389,"62":1698813877688,"63":1698813887778,"64":1698813893212,"65":1698813895149,"66":1698813896951,"67":1698813898332,"68":1698813900064,"69":1698813901387,"70":1698813910097,"71":1698813911132,"72":1698813912675,"73":1698813914288,"74":1698813915654,"75":1698813919933,"76":1698813922274,"77":1698813931361,"78":1698813932411,"79":1698813933957,"80":1698813935480,"81":1698813936990,"82":1698813938339,"83":1698813940138},"round":{"0":0,"1":0,"2":0,"3":0,"4":0,"5":0,"6":0,"7":1,"8":1,"9":1,"10":1,"11":1,"12":1,"13":1,"14":2,"15":2,"16":2,"17":2,"18":2,"19":2,"20":2,"21":3,"22":3,"23":3,"24":3,"25":3,"26":3,"27":3,"28":4,"29":4,"30":4,"31":4,"32":4,"33":4,"34":4,"35":5,"36":5,"37":5,"38":5,"39":5,"40":5,"41":5,"42":6,"43":6,"44":6,"45":6,"46":6,"47":6,"48":6,"49":7,"50":7,"51":7,"52":7,"53":7,"54":7,"55":7,"56":8,"57":8,"58":8,"59":8,"60":8,"61":8,"62":8,"63":9,"64":9,"65":9,"66":9,"67":9,"68":9,"69":9,"70":10,"71":10,"72":10,"73":10,"74":10,"75":10,"76":10,"77":11,"78":11,"79":11,"80":11,"81":11,"82":11,"83":11},"roundtype":{"0":"attentionquery","1":"attentionquery","2":"attentionquery","3":"attentionquery","4":"attentionquery","5":"attentionquery","6":"attentionquery","7":"attentionquery","8":"attentionquery","9":"attentionquery","10":"attentionquery","11":"attentionquery","12":"attentionquery","13":"attentionquery","14":"attentionquery","15":"attentionquery","16":"attentionquery","17":"attentionquery","18":"attentionquery","19":"attentionquery","20":"attentionquery","21":"attentionquery","22":"attentionquery","23":"attentionquery","24":"attentionquery","25":"attentionquery","26":"attentionquery","27":"attentionquery","28":"attentionquery","29":"attentionquery","30":"attentionquery","31":"attentionquery","32":"attentionquery","33":"attentionquery","34":"attentionquery","35":"attentionquery","36":"attentionquery","37":"attentionquery","38":"attentionquery","39":"attentionquery","40":"attentionquery","41":"attentionquery","42":"attentionquery","43":"attentionquery","44":"attentionquery","45":"attentionquery","46":"attentionquery","47":"attentionquery","48":"attentionquery","49":"attentionquery","50":"attentionquery","51":"attentionquery","52":"attentionquery","53":"attentionquery","54":"attentionquery","55":"attentionquery","56":"attentionquery","57":"attentionquery","58":"attentionquery","59":"attentionquery","60":"attentionquery","61":"attentionquery","62":"attentionquery","63":"attentionquery","64":"attentionquery","65":"attentionquery","66":"attentionquery","67":"attentionquery","68":"attentionquery","69":"attentionquery","70":"attentionquery","71":"attentionquery","72":"attentionquery","73":"attentionquery","74":"attentionquery","75":"attentionquery","76":"attentionquery","77":"attentionquery","78":"attentionquery","79":"attentionquery","80":"attentionquery","81":"attentionquery","82":"attentionquery","83":"attentionquery"},"sessionId":{"0":"t278FmmLYd","1":"t278FmmLYd","2":"t278FmmLYd","3":"t278FmmLYd","4":"t278FmmLYd","5":"t278FmmLYd","6":"t278FmmLYd","7":"t278FmmLYd","8":"t278FmmLYd","9":"t278FmmLYd","10":"t278FmmLYd","11":"t278FmmLYd","12":"t278FmmLYd","13":"t278FmmLYd","14":"t278FmmLYd","15":"t278FmmLYd","16":"t278FmmLYd","17":"t278FmmLYd","18":"t278FmmLYd","19":"t278FmmLYd","20":"t278FmmLYd","21":"t278FmmLYd","22":"t278FmmLYd","23":"t278FmmLYd","24":"t278FmmLYd","25":"t278FmmLYd","26":"t278FmmLYd","27":"t278FmmLYd","28":"t278FmmLYd","29":"t278FmmLYd","30":"t278FmmLYd","31":"t278FmmLYd","32":"t278FmmLYd","33":"t278FmmLYd","34":"t278FmmLYd","35":"t278FmmLYd","36":"t278FmmLYd","37":"t278FmmLYd","38":"t278FmmLYd","39":"t278FmmLYd","40":"t278FmmLYd","41":"t278FmmLYd","42":"t278FmmLYd","43":"t278FmmLYd","44":"t278FmmLYd","45":"t278FmmLYd","46":"t278FmmLYd","47":"t278FmmLYd","48":"t278FmmLYd","49":"t278FmmLYd","50":"t278FmmLYd","51":"t278FmmLYd","52":"t278FmmLYd","53":"t278FmmLYd","54":"t278FmmLYd","55":"t278FmmLYd","56":"t278FmmLYd","57":"t278FmmLYd","58":"t278FmmLYd","59":"t278FmmLYd","60":"t278FmmLYd","61":"t278FmmLYd","62":"t278FmmLYd","63":"t278FmmLYd","64":"t278FmmLYd","65":"t278FmmLYd","66":"t278FmmLYd","67":"t278FmmLYd","68":"t278FmmLYd","69":"t278FmmLYd","70":"t278FmmLYd","71":"t278FmmLYd","72":"t278FmmLYd","73":"t278FmmLYd","74":"t278FmmLYd","75":"t278FmmLYd","76":"t278FmmLYd","77":"t278FmmLYd","78":"t278FmmLYd","79":"t278FmmLYd","80":"t278FmmLYd","81":"t278FmmLYd","82":"t278FmmLYd","83":"t278FmmLYd"},"starttime":{"0":1698813634230,"1":1698813645655,"2":1698813650991,"3":1698813653433,"4":1698813656106,"5":1698813658477,"6":1698813660834,"7":1698813672913,"8":1698813685058,"9":1698813686924,"10":1698813688568,"11":1698813690296,"12":1698813694018,"13":1698813695476,"14":1698813706672,"15":1698813710636,"16":1698813712572,"17":1698813714115,"18":1698813715959,"19":1698813719050,"20":1698813720814,"21":1698813728405,"22":1698813734809,"23":1698813736451,"24":1698813738537,"25":1698813740190,"26":1698813741715,"27":1698813744965,"28":1698813756381,"29":1698813762761,"30":1698813763997,"31":1698813766214,"32":1698813767761,"33":1698813769659,"34":1698813770995,"35":1698813782469,"36":1698813797224,"37":1698813798532,"38":1698813800488,"39":1698813801853,"40":1698813803217,"41":1698813804524,"42":1698813814817,"43":1698813825407,"44":1698813826735,"45":1698813828156,"46":1698813830637,"47":1698813832192,"48":1698813833502,"49":1698813841362,"50":1698813850484,"51":1698813852226,"52":1698813854061,"53":1698813855947,"54":1698813857456,"55":1698813858762,"56":1698813866030,"57":1698813869431,"58":1698813870902,"59":1698813872145,"60":1698813873709,"61":1698813875321,"62":1698813876390,"63":1698813885463,"64":1698813887780,"65":1698813893213,"66":1698813895150,"67":1698813896952,"68":1698813898333,"69":1698813900065,"70":1698813907597,"71":1698813910098,"72":1698813911133,"73":1698813912676,"74":1698813914289,"75":1698813915655,"76":1698813919934,"77":1698813928218,"78":1698813931362,"79":1698813932412,"80":1698813933958,"81":1698813935481,"82":1698813936991,"83":1698813938340},"type":{"0":"GridBlockAttentionQuery","1":"GridBlockAttentionQuery","2":"GridBlockAttentionQuery","3":"GridBlockAttentionQuery","4":"GridBlockAttentionQuery","5":"GridBlockAttentionQuery","6":"GridBlockAttentionQuery","7":"GridBlockAttentionQuery","8":"GridBlockAttentionQuery","9":"GridBlockAttentionQuery","10":"GridBlockAttentionQuery","11":"GridBlockAttentionQuery","12":"GridBlockAttentionQuery","13":"GridBlockAttentionQuery","14":"GridBlockAttentionQuery","15":"GridBlockAttentionQuery","16":"GridBlockAttentionQuery","17":"GridBlockAttentionQuery","18":"GridBlockAttentionQuery","19":"GridBlockAttentionQuery","20":"GridBlockAttentionQuery","21":"GridBlockAttentionQuery","22":"GridBlockAttentionQuery","23":"GridBlockAttentionQuery","24":"GridBlockAttentionQuery","25":"GridBlockAttentionQuery","26":"GridBlockAttentionQuery","27":"GridBlockAttentionQuery","28":"GridBlockAttentionQuery","29":"GridBlockAttentionQuery","30":"GridBlockAttentionQuery","31":"GridBlockAttentionQuery","32":"GridBlockAttentionQuery","33":"GridBlockAttentionQuery","34":"GridBlockAttentionQuery","35":"GridBlockAttentionQuery","36":"GridBlockAttentionQuery","37":"GridBlockAttentionQuery","38":"GridBlockAttentionQuery","39":"GridBlockAttentionQuery","40":"GridBlockAttentionQuery","41":"GridBlockAttentionQuery","42":"GridBlockAttentionQuery","43":"GridBlockAttentionQuery","44":"GridBlockAttentionQuery","45":"GridBlockAttentionQuery","46":"GridBlockAttentionQuery","47":"GridBlockAttentionQuery","48":"GridBlockAttentionQuery","49":"GridBlockAttentionQuery","50":"GridBlockAttentionQuery","51":"GridBlockAttentionQuery","52":"GridBlockAttentionQuery","53":"GridBlockAttentionQuery","54":"GridBlockAttentionQuery","55":"GridBlockAttentionQuery","56":"GridBlockAttentionQuery","57":"GridBlockAttentionQuery","58":"GridBlockAttentionQuery","59":"GridBlockAttentionQuery","60":"GridBlockAttentionQuery","61":"GridBlockAttentionQuery","62":"GridBlockAttentionQuery","63":"GridBlockAttentionQuery","64":"GridBlockAttentionQuery","65":"GridBlockAttentionQuery","66":"GridBlockAttentionQuery","67":"GridBlockAttentionQuery","68":"GridBlockAttentionQuery","69":"GridBlockAttentionQuery","70":"GridBlockAttentionQuery","71":"GridBlockAttentionQuery","72":"GridBlockAttentionQuery","73":"GridBlockAttentionQuery","74":"GridBlockAttentionQuery","75":"GridBlockAttentionQuery","76":"GridBlockAttentionQuery","77":"GridBlockAttentionQuery","78":"GridBlockAttentionQuery","79":"GridBlockAttentionQuery","80":"GridBlockAttentionQuery","81":"GridBlockAttentionQuery","82":"GridBlockAttentionQuery","83":"GridBlockAttentionQuery"},"grid":{"0":6,"1":6,"2":6,"3":6,"4":6,"5":6,"6":6,"7":2,"8":2,"9":2,"10":2,"11":2,"12":2,"13":2,"14":5,"15":5,"16":5,"17":5,"18":5,"19":5,"20":5,"21":1,"22":1,"23":1,"24":1,"25":1,"26":1,"27":1,"28":4,"29":4,"30":4,"31":4,"32":4,"33":4,"34":4,"35":9,"36":9,"37":9,"38":9,"39":9,"40":9,"41":9,"42":11,"43":11,"44":11,"45":11,"46":11,"47":11,"48":11,"49":8,"50":8,"51":8,"52":8,"53":8,"54":8,"55":8,"56":10,"57":10,"58":10,"59":10,"60":10,"61":10,"62":10,"63":0,"64":0,"65":0,"66":0,"67":0,"68":0,"69":0,"70":7,"71":7,"72":7,"73":7,"74":7,"75":7,"76":7,"77":3,"78":3,"79":3,"80":3,"81":3,"82":3,"83":3},"trans":{"0":"rot180","1":"rot180","2":"rot180","3":"rot180","4":"rot180","5":"rot180","6":"rot180","7":"base","8":"base","9":"base","10":"base","11":"base","12":"base","13":"base","14":"vflip","15":"vflip","16":"vflip","17":"vflip","18":"vflip","19":"vflip","20":"vflip","21":"hflip","22":"hflip","23":"hflip","24":"hflip","25":"hflip","26":"hflip","27":"hflip","28":"hflip","29":"hflip","30":"hflip","31":"hflip","32":"hflip","33":"hflip","34":"hflip","35":"rot180","36":"rot180","37":"rot180","38":"rot180","39":"rot180","40":"rot180","41":"rot180","42":"vflip","43":"vflip","44":"vflip","45":"vflip","46":"vflip","47":"vflip","48":"vflip","49":"base","50":"base","51":"base","52":"base","53":"base","54":"base","55":"base","56":"vflip","57":"vflip","58":"vflip","59":"vflip","60":"vflip","61":"vflip","62":"vflip","63":"rot180","64":"rot180","65":"rot180","66":"rot180","67":"rot180","68":"rot180","69":"rot180","70":"hflip","71":"hflip","72":"hflip","73":"hflip","74":"hflip","75":"hflip","76":"hflip","77":"base","78":"base","79":"base","80":"base","81":"base","82":"base","83":"base"},"attention":{"0":-2,"1":2,"2":-2,"3":-4,"4":1,"5":-4,"6":-4,"7":1,"8":-2,"9":-2,"10":-4,"11":-3,"12":2,"13":2,"14":-2,"15":3,"16":-4,"17":2,"18":-1,"19":2,"20":-4,"21":1,"22":-1,"23":-3,"24":2,"25":-4,"26":-3,"27":2,"28":1,"29":2,"30":2,"31":-2,"32":2,"33":-4,"34":-1,"35":2,"36":3,"37":-2,"38":-3,"39":-4,"40":3,"41":1,"42":-3,"43":-4,"44":2,"45":1,"46":1,"47":1,"48":-3,"49":2,"50":-2,"51":-4,"52":1,"53":3,"54":-4,"55":-4,"56":2,"57":2,"58":-4,"59":-4,"60":1,"61":2,"62":-2,"63":-4,"64":-2,"65":-3,"66":3,"67":-3,"68":1,"69":2,"70":2,"71":3,"72":-3,"73":-4,"74":-4,"75":-3,"76":-1,"77":2,"78":-2,"79":-4,"80":-4,"81":3,"82":4,"83":-3},"rt":{"0":11423,"1":5335,"2":2441,"3":2672,"4":2370,"5":2357,"6":2266,"7":12144,"8":1865,"9":1643,"10":1727,"11":3721,"12":1457,"13":2377,"14":3963,"15":1935,"16":1542,"17":1843,"18":3090,"19":1763,"20":1697,"21":6401,"22":1641,"23":2085,"24":1651,"25":1524,"26":3249,"27":2272,"28":6379,"29":1235,"30":2216,"31":1546,"32":1897,"33":1335,"34":2539,"35":14754,"36":1307,"37":1955,"38":1364,"39":1363,"40":1307,"41":2232,"42":10589,"43":1327,"44":1420,"45":2480,"46":1554,"47":1309,"48":2341,"49":9120,"50":1741,"51":1834,"52":1885,"53":1508,"54":1305,"55":1553,"56":3400,"57":1470,"58":1242,"59":1563,"60":1611,"61":1068,"62":1298,"63":2315,"64":5432,"65":1936,"66":1801,"67":1380,"68":1731,"69":1322,"70":2500,"71":1034,"72":1542,"73":1612,"74":1365,"75":4278,"76":2340,"77":3143,"78":1049,"79":1545,"80":1522,"81":1509,"82":1348,"83":1798},"logrt":{"0":9.3433841457,"1":8.5820441637,"2":7.8001630704,"3":7.8905825347,"4":7.7706452341,"5":7.7651449029,"6":7.7257714416,"7":9.4045904996,"8":7.5310163321,"9":7.404279118,"10":7.4541410781,"11":8.2217477283,"12":7.2841348062,"13":7.7735944674,"14":8.2847565932,"15":7.5678626055,"16":7.3408355541,"17":7.5191499577,"18":8.0359263699,"19":7.4747721824,"20":7.4366172652,"21":8.7642095071,"22":7.4030610911,"23":7.6425241342,"24":7.4091364439,"25":7.3290937362,"26":8.0861025357,"27":7.7284157798,"28":8.7607666242,"29":7.1188262491,"30":7.7034590479,"31":7.3434262291,"32":7.5480289699,"33":7.1966865708,"34":7.8395255817,"35":9.5992695114,"36":7.1754897136,"37":7.5781454724,"38":7.2181768384,"39":7.2174434317,"40":7.1754897136,"41":7.7106533235,"42":9.2675710054,"43":7.1906760343,"44":7.2584121506,"45":7.8160138392,"46":7.3485875309,"47":7.1770187659,"48":7.7583334675,"49":9.1182250831,"50":7.4622149398,"51":7.5142546528,"52":7.5416830999,"53":7.3185395486,"54":7.1739583198,"55":7.3479438231,"56":8.1315307106,"57":7.2930176798,"58":7.1244782625,"59":7.3543623304,"60":7.3846103832,"61":6.9735430195,"62":7.1685798973,"63":7.7471649665,"64":8.6000626692,"65":7.5683792678,"66":7.4960973452,"67":7.2298387782,"68":7.4564545552,"69":7.1869010204,"70":7.8240460109,"71":6.9411900551,"72":7.3408355541,"73":7.3852309231,"74":7.2189097076,"75":8.3612408896,"76":7.7579062084,"77":8.0529330368,"78":6.9555926084,"79":7.3427791893,"80":7.3277805384,"81":7.3192024588,"82":7.2063772915,"83":7.494430215}}